Folder: PMIFTIR/extractedData

Note: README.md
# PMIFTIR
Polymer-Mixture Identificator from Furrier Transform InfraRed spectroscopy (PMIFTIR)

File: FTIR_Biopolymer blended films of poly butylene succinate  cyclic olefin copolymer.csv
x,PBS,COC,10PBS/90COC,20PBS/70COC,30PBS/70COC,40PBS/60COC
"497,95","21,164","35,363","48,864","65,946","77,885","93,637"
"515,27","17,899","36,175","49,929","64,76","76,865","91,029"
"545,08","19,038","37,201","51,2","65,55","77,049","92,547"
"549,18","19,014","37,295","51,032","65,302","76,712","92,706"
"561,48","18,144","37,523","50,175","62,737","75,188","90,181"
"567,62","16,325","37,611","50,3","63,227","75,145","89,66"
"610,66","20,22","37,736","51,965","66,34","78,528","93,605"
"620,9","20,428","37,588","51,836","65,386","78,356","93,366"
"645,49","14,932","36,353","48,071","61,531","75,591","89,254"
"655,74","15,987","35,128","47,697","62,212","74,417","88,053"
"682,79","20,498","35,251","49,2","66,047","76,423","93,499"
"695,9","20,813","34,202","49,041","67,252","78,285","94,615"
"717,21","20,368","25,297","40,854","67,004","78,612","94,106"
"742,38","19,303","29,455","43,44","66,583","77,574","92,872"
"746,22","19,159","29,191","44,043","66,832","77,541","92,86"
"765,74","20,048","28,048","45,801","66,763","77,969","94,348"
"780,37","18,712","29,162","44,696","61,277","75,851","88,09"
"797,13","12,457","30,395","41,507","55,753","71,208","82,734"
"803,05","12,495","30,865","42,024","56,229","70,345","82,124"
"834,02","16,584","32,692","45,598","64,245","75,455","87,516"
"846,31","17,193","32,371","46,437","65,188","75,213","91,328"
"879,1","15,141","29,462","43,507","63,041","72,626","87,72"
"887,3","14,12","29,551","42,298","59,515","71,854","86,605"
"903,98","11,583","31,021","43,644","56,417","70,429","83,648"
"924,18","10,745","28,22","42,401","56,067","69,529","82,565"
"936,48","11,836","27,796","41,362","57,797","70,059","84,832"
"948,92","9,761","29,343","40,5","55,744","69,376","83,37"
"959,02","9,166","31,543","41,401","54,543","69,448","81,764"
"981,56","11,274","33,021","43,846","57,426","70,097","83,019"
"1004,1","12,412","33,628","44,335","58,467","70,731","85,679"
"1012,95","12,085","33,451","43,916","57,393","70,814","85,432"
"1034,84","10,095","30,707","41,134","54,058","69,443","82,31"
"1043,03","9,482","29,924","40,417","55,866","69,442","81,061"
"1055,33","10,567","31,213","40,886","58,119","70,405","84,265"
"1067,62","10,933","31,758","42,598","59,627","71,529","86,944"
"1091,02","14,244","31,789","44,646","61,171","72,811","87,734"
"1098,36","14,041","31,686","44,194","61,026","72,582","87,061"
"1134,81","9,308","29,636","40,328","54,57","69,286","81,789"
"1147,54","8,843","26,924","39,353","53,651","68,656","80,478"
"1157,79","8,7","27,443","38,827","53,235","68,344","79,99"
"1209,75","8,704","29,777","38,685","52,779","68,066","80,691"
"1252,28","9,202","27,206","39,365","53,337","68,473","80,879"
"1272,94","9,381","27,962","39,474","53,835","68,747","81,183"
"1293,03","9,466","24,585","39,426","54,765","68,987","82,009"
"1308,97","8,699","26,152","39,318","54,214","68,753","81,421"
"1342,21","8,277","26,36","39,066","53,693","69,415","80,644"
1348,"8,379","25,786","39,058","53,824","69,566","80,864"
"1366,8","10,165","25,829","39,386","55,483","69,986","82,829"
"1371,05","9,935","29,371","39,61","55,32","69,258","82,819"
"1382,66","9,032","31,641","40,545","54,433","69,311","81,292"
"1395,49","10,1","32,891","41,159","53,718","69,527","82,014"
"1403,32","10,222","31,943","41,088","54,168","69,666","82,427"
"1417,94","8,884","27,105","40,18","55,241","69,902","82,166"
"1430,43","10,575","22,856","39,368","54,433","70,055","81,782"
"1442,62","9,461","22,416","38,841","54,966","70,062","81,528"
"1452,09","11,553","22,955","38,656","56,096","68,708","81,625"
"1471,31","10,79","22,626","39,291","53,913","69,415","84,085"
"1475,61","9,614","23,207","39,783","54,411","69,998","85,263"
"1492,39","17,52","31,585","44,225","62,249","74,099","89,678"
"1502,05","18,317","33,452","47,607","64,289","75,882","91,174"
"1512,3","18,741","33,858","48,611","65,397","76,936","92,173"
"1534,99","19,585","34,965","49,712","66,4","77,879","93,239"
"1573,77","19,37","35,595","50,586","66,289","77,256","93,419"
"1608,23","16,315",36,"49,345","64,378","75,148","90,575"
"1612,7","16,15","36,058","49,219","63,878","74,887","90,299"
"1635,88","16,44","36,378","49,402","61,126","74,904","89,659"
"1652,14","14,341","36,572","48,12","59,121","74,174","88,952"
"1678,28","10,309","36,627","44,053","55,786","70,442","83,8"
"1684,73","9,527","36,522","42,939","54,943","69,45","82,156"
"1709,02","8,422","35,167","39,183","52,612","67,438","80,544"
"1735,66","8,508","35,035","38,163","52,842","68,444","79,801"
"1752,05","8,775","35,743","40,723","54,066","69,779","80,782"
"1775,75","13,571","36,584","46,038","56,534","72,012","84,986"
"1813,52","15,886","36,898","48,453","61,047","75,614","88,552"
"1834,3","19,419","36,866","50,008","63,514","77,338","91,723"
"1855,13","19,837","36,815","51,193","65,72","78,562","93,596"
"1879,1","19,958","36,764","51,686","67,252","78,876","93,276"
"1905,74","20,03","36,706","51,741","65,872","77,649","93,165"
"1940,57","20,589","36,606","51,365","66,611","78,958","93,766"
"1988,1","20,537","36,304","50,321","66,718","78,696","93,318"
"2006,15","20,396","35,732","50,16","66,687","78,506","93,174"
"2053,28","20,022","35,282","50,127","66,555","78,202","93,031"
"2097,82","19,982","35,49","50,159","66,439","77,746","93,178"
"2118,85","20,229","35,493","50,089","66,418","77,636","93,103"
"2129,1","20,359","35,374","49,986","66,424","77,637","93,264"
"2155,91","20,827","34,528","49,264","66,525","77,867","93,71"
"2188,87","21,244","34,755","49,525","66,874","78,342","93,976"
"2211,07","21,173","34,965","50,069","67,004","78,594","93,656"
"2229,51","21,008","34,524","49,552","66,601","78,732","93,337"
"2263,68","20,668","34,616","49,502","66,562","78,853","94,275"
"2311,48","20,241","34,535","49,503","66,92","78,69","93,896"
"2344,39","19,987","33,862","48,95","66,834","77,937","93,364"
2375,"19,803","34,02","48,699","65,895","77,384","92,912"
"2411,51","20,123","34,363","48,875","66,211","77,68","92,966"
"2436,48","20,715","34,503","49,054","66,563","77,965","93,608"
"2491,38","21,037","33,514","49,222","66,978","78,448","93,989"
"2502,05","20,98","33,281","49,109","66,926","78,499","93,899"
"2538,02","20,594","33,397","47,62","66,624","78,544","93,041"
"2575,82","20,397","31,043","46,24","66,396","78,418","93,158"
"2639,34","20,651","28,761","45,147","66,447","77,77","93,801"
"2657,79","20,597","28,02","44,259","66,345","77,22","93,715"
"2676,23","19,519","27,58","43,031","65,768","76,701","91,951"
"2683,89","19,65","27,584","42,748","65,596","76,726","92,57"
"2700,82","20,157","28,391","43,355","66,075","76,85","93,232"
"2731,66","20,345","29,5","44,439","66,647","77,206","93,374"
"2782,79","19,883","25,267","41,469","66,286","77,344","92,747"
"2816,67","18,285","23,069","39,585","63,748","75,066","91,63"
"2838,11","16,46","22,23","38,75","59,824","72,404","89,378"
"2852,46","13,782","21,9","38,338","57,006","70,655","84,066"
"2870,9","13,522","21,678","37,947","58,461","70,665","85,931"
"2881,15","14,066","21,632","37,789","59,088","71,001","85,368"
"2941,91","9,057","22,132","37,645","53,464","67,758","80,679"
"2971,31","10,481","22,692","38,118","54,346","68,938","81,048"
"2985,66","11,955","22,992","38,524","59,483","71,616","87,912"
"3002,09","15,732","23,359","39,189","62,707","74,798","90,76"
"3012,3","16,726","24,701","39,749","63,851","75,988","91,427"
"3038,93","18,171","28,791","41,919","65,358","77,254","92,198"
"3070,4","19,099","32,435","46,054","65,874","77,667","92,344"
"3088,11","19,429","33,916","48,58","66,044","77,772","92,444"
"3137,3","20,011","35,133","49,918","66,434","77,984","92,833"
"3167,98","20,258","35,332","50,464","66,606","78,132","93,233"
3208,"20,535","35,178","50,728","66,687","78,327","93,638"
"3264,8","20,911","36,892","51,523","66,64","78,547","93,677"
"3314,36","21,087","36,973","52,117","67,016","78,612","93,622"
"3379,1","20,463","36,2","51,384","67,215","78,212","93,574"
"3399,59","19,547","36,106","50,572","66,672","77,709","93,622"
"3426,58","15,979","36,082","48,936","61,759","75,336","88,973"
"3447,73","18,061","36,204","50,216","64,456","75,634","90,625"
"3479,51","19,732","37,161","51,924","66,308","77,405","93,19"
"3490,71","19,762","37,334","52,161","66,126","77,629","93,493"
"3536,89","18,943","37,449","52,29","65,303","77,421","92,427"
"3575,82","19,455","37,193","51,666","66,022","77,48","92,607"
"3586,07","19,508","36,947","51,082","66,01","77,577","92,704"
"3629,1","19,122","35,988","50,713","65,778","78,161","92,631"
"3657,79","19,93","36,015","50,873","66,235","78,618","93,269"
"3694,67","20,987","36,104","51,078","66,981","79,156","94,228"
"3733,98","21,098","36,224","51,282","66,891","79,132","93,891"
"3745,9","21,084","36,262","51,344","66,779","78,673","93,677"